Folder: CVProcessor/Example Data

Note: README.md
# Cyclic Voltammetry (CV)

---

I wrote these scripts to process the data from cyclic voltammetry experiments I ran as a PhD student. Sure beats the cutting and pasting from excel ...not that'd I'd ever admit to having done that...

---

## The general workflow

After data collection, some additional processing is needed to make plots of the voltammograms and analyze the data. The scripts help with the following:

1. Clean up the .txt files from the instrument and write a .csv file
2. Determine the half wave potential (E<sub>1/2</sub>), the midpoint between the cathodic (E<sub>pc</sub>) and anodic (E<sub>pa</sub>) peak potentials, of the reference molecule (Ferrocene in this example)
3. Reference the potentials for the measurements of the molecule of interist to that of the reference molecule and reference electrode
4. Background subtraction of the baseline current

---

### Example outputs

Overlays of all plots from step 1.

Overlay of the reference molecule before and after correcting

Overlay of subject molecule before and after referencing vs the reference molecule

Overlay of the background and subject molecule

overlay of the background molecule following subtraction of the baseline current

---
### Notes

Feel free to modify this code to clean up your own voltammograms :)

File: Blank.txt
June 8, 2022   12:07:06
Cyclic Voltammetry
File: blank'
Data Source:  Experiment
Instrument Model:  CHI620D
Ref. Electrode: Ag/AgCl
Header:
Note:

Init E (V) = -0.02
High E (V) = 0
Low E (V) = -1.35
Init P/N = N
Scan Rate (V/s) = 0.1
Segment = 2
Sample Interval (V) = 0.001
Quiet Time (sec) = 2
Sensitivity (A/V) = 1e-5

Segment 1:

Segment 2:

Potential/V, Current/A

-0.020, 7.791e-8
-0.029, 6.112e-8
-0.038, 2.161e-7
-0.047, 1.776e-7
-0.056, 1.204e-7
-0.065, 2.799e-7
-0.074, 1.049e-7
-0.083, 2.420e-7
-0.092, 2.140e-7
-0.101, 1.409e-7
-0.110, 3.007e-7
-0.119, 1.255e-7
-0.128, 2.549e-7
-0.137, 2.358e-7
-0.146, 1.484e-7
-0.155, 3.141e-7
-0.164, 1.446e-7
-0.173, 2.612e-7
-0.182, 2.516e-7
-0.191, 1.548e-7
-0.200, 3.272e-7
-0.209, 1.576e-7
-0.218, 2.624e-7
-0.227, 2.688e-7
-0.236, 1.628e-7
-0.245, 3.369e-7
-0.254, 1.706e-7
-0.263, 2.647e-7
-0.272, 2.870e-7
-0.281, 1.687e-7
-0.290, 3.465e-7
-0.299, 1.867e-7
-0.308, 2.737e-7
-0.317, 3.043e-7
-0.326, 1.738e-7
-0.335, 3.546e-7
-0.344, 2.043e-7
-0.353, 2.747e-7
-0.362, 3.187e-7
-0.371, 1.834e-7
-0.380, 3.654e-7
-0.389, 2.212e-7
-0.398, 2.777e-7
-0.407, 3.355e-7
-0.416, 1.928e-7
-0.425, 3.746e-7
-0.434, 2.360e-7
-0.443, 2.807e-7
-0.452, 3.544e-7
-0.461, 2.038e-7
-0.470, 3.820e-7
-0.479, 2.521e-7
-0.488, 2.881e-7
-0.497, 3.715e-7
-0.506, 2.123e-7
-0.515, 3.902e-7
-0.524, 2.714e-7
-0.533, 2.955e-7
-0.542, 3.877e-7
-0.551, 2.227e-7
-0.560, 3.999e-7
-0.569, 2.905e-7
-0.578, 3.023e-7
-0.587, 4.038e-7
-0.596, 2.345e-7
-0.605, 4.103e-7
-0.614, 3.075e-7
-0.623, 3.070e-7
-0.632, 4.188e-7
-0.641, 2.476e-7
-0.650, 4.192e-7
-0.659, 3.266e-7
-0.668, 3.125e-7
-0.677, 4.355e-7
-0.686, 2.611e-7
-0.695, 4.270e-7
-0.704, 3.424e-7
-0.713, 3.187e-7
-0.722, 4.524e-7
-0.731, 2.768e-7
-0.740, 4.344e-7
-0.749, 3.610e-7
-0.758, 3.276e-7
-0.767, 4.677e-7
-0.776, 2.895e-7
-0.785, 4.423e-7
-0.794, 3.797e-7
-0.803, 3.368e-7
-0.812, 4.842e-7
-0.821, 3.014e-7
-0.830, 4.520e-7
-0.839, 4.012e-7
-0.848, 3.474e-7
-0.857, 4.998e-7
-0.866, 3.214e-7
-0.875, 4.641e-7
-0.884, 4.256e-7
-0.893, 3.605e-7
-0.902, 5.184e-7
-0.911, 3.415e-7
-0.920, 4.794e-7
-0.929, 4.517e-7
-0.938, 3.758e-7
-0.947, 5.390e-7
-0.956, 3.656e-7
-0.965, 4.979e-7
-0.974, 4.797e-7
-0.983, 3.947e-7
-0.992, 5.637e-7
-1.001, 3.945e-7
-1.010, 5.212e-7
-1.019, 5.138e-7
-1.028, 4.186e-7
-1.037, 5.967e-7
-1.046, 4.298e-7
-1.055, 5.489e-7
-1.064, 5.496e-7
-1.073, 4.487e-7
-1.082, 6.303e-7
-1.091, 4.649e-7
-1.100, 5.742e-7
-1.109, 5.851e-7
-1.118, 4.778e-7
-1.127, 6.655e-7
-1.136, 4.978e-7
-1.145, 5.987e-7
-1.154, 6.219e-7
-1.163, 5.076e-7
-1.172, 6.919e-7
-1.181, 5.314e-7
-1.190, 6.267e-7
-1.199, 6.608e-7
-1.208, 5.379e-7
-1.217, 7.243e-7
-1.226, 5.700e-7
-1.235, 6.589e-7
-1.244, 7.023e-7
-1.253, 5.717e-7
-1.262, 7.608e-7
-1.271, 6.153e-7
-1.280, 6.953e-7
-1.289, 7.466e-7
-1.298, 6.135e-7
-1.307, 8.084e-7
-1.316, 6.661e-7
-1.325, 7.349e-7
-1.334, 8.010e-7
-1.343, 6.672e-7
-1.348, 5.842e-7
-1.339, 2.818e-7
-1.330, 2.782e-7
-1.321, 3.067e-7
-1.312, 1.193e-7
-1.303, 2.721e-7
-1.294, 1.079e-7
-1.285, 1.322e-7
-1.276, 1.853e-7
-1.267, 6.424e-9
-1.258, 1.726e-7
-1.249, 2.555e-8
-1.240, 4.462e-8
-1.231, 1.109e-7
-1.222, -6.150e-8
-1.213, 1.074e-7
-1.204, -3.460e-8
-1.195, -1.934e-8
-1.186, 6.157e-8
-1.177, -1.122e-7
-1.168, 5.391e-8
-1.159, -7.691e-8
-1.150, -6.596e-8
-1.141, 2.063e-8
-1.132, -1.579e-7
-1.123, 1.148e-8
-1.114, -1.088e-7
-1.105, -1.094e-7
-1.096, -1.554e-8
-1.087, -1.924e-7
-1.078, -2.361e-8
-1.069, -1.405e-7
-1.060, -1.485e-7
-1.051, -4.271e-8
-1.042, -2.224e-7
-1.033, -6.012e-8
-1.024, -1.614e-7
-1.015, -1.786e-7
-1.006, -6.896e-8
-0.997, -2.537e-7
-0.988, -8.954e-8
-0.979, -1.850e-7
-0.970, -2.108e-7
-0.961, -9.065e-8
-0.952, -2.733e-7
-0.943, -1.124e-7
-0.934, -2.015e-7
-0.925, -2.360e-7
-0.916, -1.047e-7
-0.907, -2.912e-7
-0.898, -1.382e-7
-0.889, -2.108e-7
-0.880, -2.554e-7
-0.871, -1.203e-7
-0.862, -3.076e-7
-0.853, -1.559e-7
-0.844, -2.178e-7
-0.835, -2.756e-7
-0.826, -1.329e-7
-0.817, -3.137e-7
-0.808, -1.730e-7
-0.799, -2.275e-7
-0.790, -2.928e-7
-0.781, -1.397e-7
-0.772, -3.274e-7
-0.763, -1.920e-7
-0.754, -2.306e-7
-0.745, -3.065e-7
-0.736, -1.521e-7
-0.727, -3.353e-7
-0.718, -2.054e-7
-0.709, -2.338e-7
-0.700, -3.236e-7
-0.691, -1.601e-7
-0.682, -3.382e-7
-0.673, -2.208e-7
-0.664, -2.383e-7
-0.655, -3.358e-7
-0.646, -1.658e-7
-0.637, -3.439e-7
-0.628, -2.372e-7
-0.619, -2.392e-7
-0.610, -3.450e-7
-0.601, -1.749e-7
-0.592, -3.492e-7
-0.583, -2.494e-7
-0.574, -2.394e-7
-0.565, -3.596e-7
-0.556, -1.837e-7
-0.547, -3.508e-7
-0.538, -2.628e-7
-0.529, -2.428e-7
-0.520, -3.731e-7
-0.511, -1.946e-7
-0.502, -3.530e-7
-0.493, -2.791e-7
-0.484, -2.460e-7
-0.475, -3.827e-7
-0.466, -2.005e-7
-0.457, -3.572e-7
-0.448, -2.951e-7
-0.439, -2.464e-7
-0.430, -3.908e-7
-0.421, -2.119e-7
-0.412, -3.616e-7
-0.403, -3.071e-7
-0.394, -2.467e-7
-0.385, -4.017e-7
-0.376, -2.231e-7
-0.367, -3.615e-7
-0.358, -3.200e-7
-0.349, -2.501e-7
-0.340, -4.114e-7
-0.331, -2.303e-7
-0.322, -3.608e-7
-0.313, -3.351e-7
-0.304, -2.531e-7
-0.295, -4.174e-7
-0.286, -2.401e-7
-0.277, -3.633e-7
-0.268, -3.511e-7
-0.259, -2.539e-7
-0.250, -4.239e-7
-0.241, -2.532e-7
-0.232, -3.648e-7
-0.223, -3.631e-7
-0.214, -2.543e-7
-0.205, -4.290e-7
-0.196, -2.658e-7
-0.187, -3.632e-7
-0.178, -3.753e-7
-0.169, -2.591e-7
-0.160, -4.399e-7
-0.151, -2.767e-7
-0.142, -3.616e-7
-0.133, -3.910e-7
-0.124, -2.652e-7
-0.115, -4.447e-7
-0.106, -2.880e-7
-0.097, -3.655e-7
-0.088, -4.072e-7
-0.079, -2.680e-7
-0.070, -4.515e-7
-0.061, -3.050e-7
-0.052, -3.661e-7
-0.043, -4.202e-7
-0.034, -2.771e-7
-0.025, -4.613e-7
-0.016, -3.188e-7
-0.007, -3.674e-7
-0.001, -3.241e-7

File: FC.txt
June 8, 2022   12:35:56
Cyclic Voltammetry
File: fc
Data Source:  Experiment
Instrument Model:  CHI620D
Ref. Electrode: Ag/AgCl
Header:
Note:

Init E (V) = 0
High E (V) = 1.2
Low E (V) = 0
Final E (V) = 0.05
Init P/N = P
Scan Rate (V/s) = 0.1
Segment = 2
Sample Interval (V) = 0.001
Quiet Time (sec) = 2
Sensitivity (A/V) = 1e-5
Comp R (ohm) = 10.1

Segment 1:
Ep = 0.863V
Eh = 0.758V
ip = -6.367e-6A
Ah = -6.562e-6C

Segment 2:
Ep = 0.653V
Eh = 0.750V
ip = 6.659e-6A
Ah = 6.796e-6C

Potential/V, Current/A

0.000, 3.381e-8
0.008, -2.700e-7
0.016, -3.571e-7
0.024, -2.209e-7
0.032, -8.096e-8
0.040, -1.465e-7
0.048, -3.251e-7
0.056, -4.019e-7
0.064, -2.559e-7
0.072, -1.193e-7
0.080, -1.827e-7
0.088, -3.638e-7
0.096, -4.372e-7
0.104, -2.918e-7
0.112, -1.573e-7
0.120, -2.236e-7
0.128, -4.041e-7
0.136, -4.773e-7
0.144, -3.274e-7
0.152, -2.014e-7
0.160, -2.677e-7
0.168, -4.520e-7
0.176, -5.193e-7
0.184, -3.696e-7
0.192, -2.459e-7
0.200, -3.163e-7
0.208, -5.008e-7
0.216, -5.685e-7
0.224, -4.137e-7
0.232, -2.953e-7
0.240, -3.660e-7
0.248, -5.561e-7
0.256, -6.181e-7
0.264, -4.651e-7
0.272, -3.452e-7
0.280, -4.186e-7
0.288, -6.094e-7
0.296, -6.727e-7
0.304, -5.160e-7
0.312, -4.022e-7
0.320, -4.771e-7
0.328, -6.716e-7
0.336, -7.317e-7
0.344, -5.762e-7
0.352, -4.635e-7
0.360, -5.428e-7
0.368, -7.388e-7
0.376, -7.980e-7
0.384, -6.398e-7
0.392, -5.333e-7
0.400, -6.156e-7
0.408, -8.157e-7
0.416, -8.705e-7
0.424, -7.148e-7
0.432, -6.077e-7
0.440, -6.963e-7
0.448, -8.997e-7
0.456, -9.560e-7
0.464, -7.965e-7
0.472, -6.930e-7
0.480, -7.844e-7
0.488, -9.947e-7
0.496, -1.049e-6
0.504, -8.915e-7
0.512, -7.937e-7
0.520, -8.929e-7
0.528, -1.107e-6
0.536, -1.163e-6
0.544, -1.008e-6
0.552, -9.183e-7
0.560, -1.030e-6
0.568, -1.256e-6
0.576, -1.318e-6
0.584, -1.176e-6
0.592, -1.102e-6
0.600, -1.237e-6
0.608, -1.484e-6
0.616, -1.560e-6
0.624, -1.441e-6
0.632, -1.403e-6
0.640, -1.581e-6
0.648, -1.878e-6
0.656, -2.002e-6
0.664, -1.942e-6
0.672, -1.987e-6
0.680, -2.279e-6
0.688, -2.691e-6
0.696, -2.927e-6
0.704, -2.990e-6
0.712, -3.196e-6
0.720, -3.660e-6
0.728, -4.226e-6
0.736, -4.590e-6
0.744, -4.777e-6
0.752, -5.105e-6
0.760, -5.678e-6
0.768, -6.323e-6
0.776, -6.734e-6
0.784, -6.944e-6
0.792, -7.274e-6
0.800, -7.817e-6
0.808, -8.400e-6
0.816, -8.713e-6
0.824, -8.790e-6
0.832, -8.958e-6
0.840, -9.302e-6
0.848, -9.648e-6
0.856, -9.711e-6
0.864, -9.523e-6
0.872, -9.382e-6
0.880, -9.397e-6
0.888, -9.427e-6
0.896, -9.195e-6
0.904, -8.736e-6
0.912, -8.353e-6
0.920, -8.194e-6
0.928, -8.133e-6
0.936, -7.886e-6
0.944, -7.470e-6
0.952, -7.178e-6
0.960, -7.132e-6
0.968, -7.186e-6
0.976, -7.042e-6
0.984, -6.723e-6
0.992, -6.516e-6
1.000, -6.553e-6
1.008, -6.671e-6
1.016, -6.585e-6
1.024, -6.308e-6
1.032, -6.159e-6
1.040, -6.240e-6
1.048, -6.395e-6
1.056, -6.331e-6
1.064, -6.088e-6
1.072, -5.953e-6
1.080, -6.057e-6
1.088, -6.223e-6
1.096, -6.172e-6
1.104, -5.934e-6
1.112, -5.811e-6
1.120, -5.924e-6
1.128, -6.103e-6
1.136, -6.052e-6
1.144, -5.824e-6
1.152, -5.706e-6
1.160, -5.829e-6
1.168, -6.010e-6
1.176, -5.969e-6
1.184, -5.747e-6
1.192, -5.641e-6
1.200, -5.681e-6
1.192, -4.990e-6
1.184, -4.572e-6
1.176, -4.087e-6
1.168, -3.772e-6
1.160, -3.730e-6
1.152, -3.768e-6
1.144, -3.597e-6
1.136, -3.268e-6
1.128, -3.065e-6
1.120, -3.110e-6
1.112, -3.210e-6
1.104, -3.093e-6
1.096, -2.806e-6
1.088, -2.643e-6
1.080, -2.718e-6
1.072, -2.845e-6
1.064, -2.748e-6
1.056, -2.486e-6
1.048, -2.339e-6
1.040, -2.430e-6
1.032, -2.567e-6
1.024, -2.493e-6
1.016, -2.233e-6
1.008, -2.101e-6
1.000, -2.201e-6
0.992, -2.346e-6
0.984, -2.263e-6
0.976, -2.020e-6
0.968, -1.898e-6
0.960, -2.007e-6
0.952, -2.150e-6
0.944, -2.070e-6
0.936, -1.832e-6
0.928, -1.719e-6
0.920, -1.818e-6
0.912, -1.961e-6
0.904, -1.870e-6
0.896, -1.625e-6
0.888, -1.497e-6
0.880, -1.591e-6
0.872, -1.700e-6
0.864, -1.571e-6
0.856, -1.269e-6
0.848, -1.096e-6
0.840, -1.109e-6
0.832, -1.134e-6
0.824, -8.686e-7
0.816, -4.632e-7
0.808, -1.494e-7
0.800, -4.132e-8
0.792, 1.042e-7
0.784, 5.323e-7
0.776, 1.106e-6
0.768, 1.537e-6
0.760, 1.765e-6
0.752, 2.022e-6
0.744, 2.564e-6
0.736, 3.199e-6
0.728, 3.671e-6
0.720, 3.896e-6
0.712, 4.151e-6
0.704, 4.640e-6
0.696, 5.187e-6
0.688, 5.521e-6
0.680, 5.583e-6
0.672, 5.630e-6
0.664, 5.869e-6
0.656, 6.114e-6
0.648, 6.128e-6
0.640, 5.848e-6
0.632, 5.539e-6
0.624, 5.404e-6
0.616, 5.323e-6
0.608, 5.084e-6
0.600, 4.634e-6
0.592, 4.228e-6
0.584, 4.070e-6
0.576, 4.038e-6
0.568, 3.898e-6
0.560, 3.553e-6
0.552, 3.262e-6
0.544, 3.199e-6
0.536, 3.262e-6
0.528, 3.193e-6
0.520, 2.912e-6
0.512, 2.687e-6
0.504, 2.674e-6
0.496, 2.781e-6
0.488, 2.747e-6
0.480, 2.497e-6
0.472, 2.307e-6
0.464, 2.322e-6
0.456, 2.458e-6
0.448, 2.436e-6
0.440, 2.207e-6
0.432, 2.035e-6
0.424, 2.070e-6
0.416, 2.219e-6
0.408, 2.204e-6
0.400, 1.990e-6
0.392, 1.834e-6
0.384, 1.881e-6
0.376, 2.043e-6
0.368, 2.029e-6
0.360, 1.823e-6
0.352, 1.674e-6
0.344, 1.733e-6
0.336, 1.896e-6
0.328, 1.890e-6
0.320, 1.690e-6
0.312, 1.549e-6
0.304, 1.615e-6
0.296, 1.783e-6
0.288, 1.773e-6
0.280, 1.582e-6
0.272, 1.445e-6
0.264, 1.519e-6
0.256, 1.688e-6
0.248, 1.684e-6
0.240, 1.496e-6
0.232, 1.366e-6
0.224, 1.443e-6
0.216, 1.615e-6
0.208, 1.611e-6
0.200, 1.428e-6
0.192, 1.303e-6
0.184, 1.388e-6
0.176, 1.561e-6
0.168, 1.560e-6
0.160, 1.376e-6
0.152, 1.254e-6
0.144, 1.342e-6
0.136, 1.519e-6
0.128, 1.516e-6
0.120, 1.339e-6
0.112, 1.220e-6
0.104, 1.313e-6
0.096, 1.487e-6
0.088, 1.485e-6
0.080, 1.305e-6
0.072, 1.190e-6
0.064, 1.285e-6
0.056, 1.461e-6
0.051, 1.455e-6

File: Sample.txt
June 8, 2022   12:26:39
Cyclic Voltammetry
File: pz2pnme-p-0.7mm-et3nhbf4-1.0mm
Data Source:  Experiment
Instrument Model:  CHI620D
Ref. Electrode: Ag/AgCl
Header:
Note:

Init E (V) = -0.02
High E (V) = 0
Low E (V) = -1.35
Init P/N = N
Scan Rate (V/s) = 0.1
Segment = 2
Sample Interval (V) = 0.001
Quiet Time (sec) = 2
Sensitivity (A/V) = 1e-5
Comp R (ohm) = 94.9

Segment 1:
Ep = -0.519V
Eh = -0.479V
ip = 8.712e-7A
Ah = 3.020e-7C

Ep = -0.909V
Eh = -0.836V
ip = 7.519e-6A
Ah = 5.355e-6C

Segment 2:
Ep = -0.462V
Eh = -0.474V
ip = -6.355e-7A
Ah = -1.390e-7C

Potential/V, Current/A

-0.020, 2.352e-7
-0.029, 6.621e-8
-0.038, 7.538e-8
-0.047, 3.866e-7
-0.056, -6.598e-8
-0.065, 3.666e-7
-0.074, 1.294e-7
-0.083, 9.052e-8
-0.092, 4.340e-7
-0.101, -5.068e-8
-0.110, 3.669e-7
-0.119, 1.947e-7
-0.128, 7.963e-8
-0.137, 4.506e-7
-0.146, -2.816e-8
-0.155, 3.690e-7
-0.164, 2.457e-7
-0.173, 6.092e-8
-0.182, 4.726e-7
-0.191, -7.908e-10
-0.200, 3.574e-7
-0.209, 2.912e-7
-0.218, 5.250e-8
-0.227, 4.914e-7
-0.236, 3.029e-8
-0.245, 3.463e-7
-0.254, 3.288e-7
-0.263, 4.414e-8
-0.272, 5.125e-7
-0.281, 6.482e-8
-0.290, 3.295e-7
-0.299, 3.659e-7
-0.308, 4.186e-8
-0.317, 5.210e-7
-0.326, 1.031e-7
-0.335, 3.087e-7
-0.344, 4.038e-7
-0.353, 4.039e-8
-0.362, 5.353e-7
-0.371, 1.428e-7
-0.380, 2.764e-7
-0.389, 4.522e-7
-0.398, 5.750e-8
-0.407, 5.450e-7
-0.416, 1.771e-7
-0.425, 2.696e-7
-0.434, 5.231e-7
-0.443, 9.398e-8
-0.452, 5.909e-7
-0.461, 3.360e-7
-0.470, 4.270e-7
-0.479, 8.218e-7
-0.488, 4.944e-7
-0.497, 1.068e-6
-0.506, 9.351e-7
-0.515, 9.431e-7
-0.524, 1.288e-6
-0.533, 7.754e-7
-0.542, 1.142e-6
-0.551, 8.883e-7
-0.560, 7.657e-7
-0.569, 1.094e-6
-0.578, 5.646e-7
-0.587, 9.588e-7
-0.596, 7.889e-7
-0.605, 6.138e-7
-0.614, 9.961e-7
-0.623, 4.965e-7
-0.632, 8.720e-7
-0.641, 7.681e-7
-0.650, 5.407e-7
-0.659, 9.649e-7
-0.668, 4.786e-7
-0.677, 8.311e-7
-0.686, 7.742e-7
-0.695, 5.069e-7
-0.704, 9.748e-7
-0.713, 5.029e-7
-0.722, 8.237e-7
-0.731, 8.293e-7
-0.740, 5.622e-7
-0.749, 1.071e-6
-0.758, 6.710e-7
-0.767, 1.052e-6
-0.776, 1.253e-6
-0.785, 1.157e-6
-0.794, 1.999e-6
-0.803, 2.020e-6
-0.812, 2.761e-6
-0.821, 3.479e-6
-0.830, 3.751e-6
-0.839, 4.934e-6
-0.848, 5.232e-6
-0.857, 6.041e-6
-0.866, 6.815e-6
-0.875, 6.939e-6
-0.884, 7.907e-6
-0.893, 7.865e-6
-0.902, 8.171e-6
-0.911, 8.405e-6
-0.920, 7.883e-6
-0.929, 8.139e-6
-0.938, 7.415e-6
-0.947, 7.144e-6
-0.956, 6.922e-6
-0.965, 6.192e-6
-0.974, 6.407e-6
-0.983, 5.770e-6
-0.992, 5.714e-6
-1.001, 5.728e-6
-1.010, 5.200e-6
-1.019, 5.612e-6
-1.028, 5.145e-6
-1.037, 5.205e-6
-1.046, 5.349e-6
-1.055, 4.905e-6
-1.064, 5.365e-6
-1.073, 4.944e-6
-1.082, 5.029e-6
-1.091, 5.195e-6
-1.100, 4.759e-6
-1.109, 5.249e-6
-1.118, 4.853e-6
-1.127, 4.958e-6
-1.136, 5.175e-6
-1.145, 4.771e-6
-1.154, 5.295e-6
-1.163, 4.952e-6
-1.172, 5.097e-6
-1.181, 5.345e-6
-1.190, 4.978e-6
-1.199, 5.533e-6
-1.208, 5.198e-6
-1.217, 5.360e-6
-1.226, 5.630e-6
-1.235, 5.275e-6
-1.244, 5.850e-6
-1.253, 5.555e-6
-1.262, 5.754e-6
-1.271, 6.052e-6
-1.280, 5.756e-6
-1.289, 6.381e-6
-1.298, 6.124e-6
-1.307, 6.385e-6
-1.316, 6.724e-6
-1.325, 6.465e-6
-1.334, 7.136e-6
-1.343, 6.915e-6
-1.348, 6.843e-6
-1.339, 6.591e-6
-1.330, 5.837e-6
-1.321, 6.015e-6
-1.312, 5.329e-6
-1.303, 5.200e-6
-1.294, 5.105e-6
-1.285, 4.480e-6
-1.276, 4.775e-6
-1.267, 4.174e-6
-1.258, 4.138e-6
-1.249, 4.104e-6
-1.240, 3.563e-6
-1.231, 3.910e-6
-1.222, 3.367e-6
-1.213, 3.410e-6
-1.204, 3.396e-6
-1.195, 2.905e-6
-1.186, 3.304e-6
-1.177, 2.787e-6
-1.168, 2.878e-6
-1.159, 2.886e-6
-1.150, 2.438e-6
-1.141, 2.857e-6
-1.132, 2.362e-6
-1.123, 2.509e-6
-1.114, 2.518e-6
-1.105, 2.100e-6
-1.096, 2.547e-6
-1.087, 2.062e-6
-1.078, 2.240e-6
-1.069, 2.254e-6
-1.060, 1.866e-6
-1.051, 2.309e-6
-1.042, 1.826e-6
-1.033, 2.039e-6
-1.024, 2.050e-6
-1.015, 1.667e-6
-1.006, 2.122e-6
-0.997, 1.639e-6
-0.988, 1.866e-6
-0.979, 1.868e-6
-0.970, 1.518e-6
-0.961, 1.965e-6
-0.952, 1.468e-6
-0.943, 1.711e-6
-0.934, 1.693e-6
-0.925, 1.322e-6
-0.916, 1.744e-6
-0.907, 1.215e-6
-0.898, 1.405e-6
-0.889, 1.325e-6
-0.880, 9.019e-7
-0.871, 1.250e-6
-0.862, 6.383e-7
-0.853, 7.719e-7
-0.844, 6.375e-7
-0.835, 1.810e-7
-0.826, 5.133e-7
-0.817, -7.383e-8
-0.808, 1.266e-7
-0.799, 2.732e-8
-0.790, -3.174e-7
-0.781, 1.030e-7
-0.772, -4.132e-7
-0.763, -1.161e-7
-0.754, -1.628e-7
-0.745, -4.427e-7
-0.736, 5.858e-10
-0.727, -4.844e-7
-0.718, -1.519e-7
-0.709, -2.089e-7
-0.700, -4.707e-7
-0.691, -2.106e-8
-0.682, -5.059e-7
-0.673, -1.748e-7
-0.664, -2.310e-7
-0.655, -4.821e-7
-0.646, -4.303e-8
-0.637, -5.292e-7
-0.628, -1.791e-7
-0.619, -2.464e-7
-0.610, -4.973e-7
-0.601, -5.717e-8
-0.592, -5.386e-7
-0.583, -1.878e-7
-0.574, -2.690e-7
-0.565, -5.117e-7
-0.556, -8.112e-8
-0.547, -5.857e-7
-0.538, -2.498e-7
-0.529, -3.615e-7
-0.520, -6.554e-7
-0.511, -3.108e-7
-0.502, -8.870e-7
-0.493, -6.531e-7
-0.484, -8.328e-7
-0.475, -1.156e-6
-0.466, -7.543e-7
-0.457, -1.222e-6
-0.448, -8.260e-7
-0.439, -8.685e-7
-0.430, -1.053e-6
-0.421, -6.059e-7
-0.412, -1.077e-6
-0.403, -6.840e-7
-0.394, -7.706e-7
-0.385, -9.900e-7
-0.376, -5.715e-7
-0.367, -1.057e-6
-0.358, -6.795e-7
-0.349, -7.819e-7
-0.340, -9.851e-7
-0.331, -5.594e-7
-0.322, -1.046e-6
-0.313, -6.519e-7
-0.304, -7.376e-7
-0.295, -9.335e-7
-0.286, -5.120e-7
-0.277, -9.910e-7
-0.268, -5.892e-7
-0.259, -6.897e-7
-0.250, -8.843e-7
-0.241, -4.596e-7
-0.232, -9.477e-7
-0.223, -5.566e-7
-0.214, -6.550e-7
-0.205, -8.386e-7
-0.196, -4.345e-7
-0.187, -9.279e-7
-0.178, -5.289e-7
-0.169, -6.364e-7
-0.160, -8.333e-7
-0.151, -4.209e-7
-0.142, -9.112e-7
-0.133, -5.252e-7
-0.124, -6.395e-7
-0.115, -8.279e-7
-0.106, -4.240e-7
-0.097, -9.296e-7
-0.088, -5.412e-7
-0.079, -6.597e-7
-0.070, -8.585e-7
-0.061, -4.697e-7
-0.052, -9.737e-7
-0.043, -5.998e-7
-0.034, -7.424e-7
-0.025, -9.504e-7
-0.016, -5.768e-7
-0.007, -1.107e-6
-0.001, -6.442e-7